File: dataset/ETT-small/dataset.csv
date,Voltage(V),Current(A),Charge_Capacity(Ah),Discharge_Capacity(Ah),Charge_Energy(Wh),Discharge_Energy(Wh)
27-01-2018 15:48,3.40964,0,0,0,0,0
27-01-2018 15:58,3.41116,0,0,0,0,0
27-01-2018 16:08,3.41193,0,0,0,0,0
27-01-2018 16:18,3.41273,0,0,0,0,0
27-01-2018 16:28,3.41355,0,0,0,0,0
27-01-2018 16:38,3.41436,0,0,0,0,0
27-01-2018 16:46,3.41492,0,0,0,0,0
27-01-2018 16:55,4.22458,3.2599,0.615806,0,2.57751,0
27-01-2018 17:05,4.32899,3.25986,1.15914,0,4.90184,0
27-01-2018 17:15,4.40016,2.79171,1.68578,0,7.20716,0
27-01-2018 17:25,4.40014,2.0041,2.07967,0,8.94033,0
27-01-2018 17:35,4.4001,1.50788,2.3695,0,10.2156,0
27-01-2018 17:45,4.40006,1.14869,2.58947,0,11.1835,0
27-01-2018 17:55,4.4,0.870243,2.75686,0,11.92,0
27-01-2018 18:05,4.40005,0.654615,2.88323,0,12.476,0
27-01-2018 18:13,3.91758,-2.28206,2.88492,0.07605899,12.4835,0.3023361
27-01-2018 18:23,3.70225,-2.28201,2.88492,0.4563771,12.4835,1.746423
27-01-2018 18:33,3.57906,-2.28209,2.88492,0.8367072,12.4835,3.129348
27-01-2018 18:43,3.4937,-2.28211,2.88492,1.217085,12.4835,4.473934
27-01-2018 18:53,3.41585,-2.28208,2.88492,1.59743,12.4835,5.788033
27-01-2018 19:03,3.32183,-2.2821,2.88492,1.977756,12.4835,7.070218
27-01-2018 19:13,3.18289,-2.28214,2.88492,2.358072,12.4835,8.309208
27-01-2018 19:22,3.62993,0,2.88492,2.644777,12.4835,9.198724
27-01-2018 19:29,4.20023,4.0219,0.297987,0,1.2481,0
27-01-2018 19:38,4.24111,3.25992,0.833624,0,3.50203,0
27-01-2018 19:48,4.3808,3.25982,1.37698,0,5.84275,0
27-01-2018 19:58,4.40016,2.25439,1.83869,0,7.8737,0
27-01-2018 20:08,4.4001,1.62913,2.15796,0,9.27851,0
27-01-2018 20:18,4.40011,1.20473,2.39241,0,10.3101,0
27-01-2018 20:28,4.40009,0.879519,2.56467,0,11.0681,0
27-01-2018 20:38,4.4001,0.651983,2.68477,0,11.5965,0
27-01-2018 20:47,3.89884,-2.28204,2.68477,0.1521148,11.5965,0.6023102
27-01-2018 20:57,3.73031,-2.28206,2.68477,0.532394,11.5965,2.051188
27-01-2018 21:07,3.61297,-2.28216,2.68477,0.9128106,11.5965,3.446455
27-01-2018 21:17,3.52431,-2.28209,2.68477,1.293135,11.5965,4.803177
27-01-2018 21:27,3.44679,-2.28211,2.68477,1.673462,11.5965,6.128767
27-01-2018 21:37,3.35578,-2.28214,2.68477,2.053835,11.5965,7.423487
27-01-2018 21:47,3.203,-2.28208,2.68477,2.434168,11.5965,8.673814
27-01-2018 21:56,3.62279,0,2.68477,2.690619,11.5965,9.472517
27-01-2018 22:03,4.20019,3.98883,0.297069,0,1.24406,0
27-01-2018 22:12,4.24472,3.25988,0.803223,0,3.37465,0
27-01-2018 22:22,4.38243,3.26009,1.34652,0,5.71667,0
27-01-2018 22:32,4.40017,2.30399,1.81127,0,7.76109,0
27-01-2018 22:42,4.40012,1.68039,2.13986,0,9.20691,0
27-01-2018 22:52,4.4001,1.24734,2.38218,0,10.2731,0
27-01-2018 23:02,4.40012,0.91576,2.56129,0,11.0612,0
27-01-2018 23:12,4.40013,0.666769,2.69181,0,11.6355,0
27-01-2018 23:19,3.95527,-2.28208,2.69971,0.07606284,11.6703,0.3045281
27-01-2018 23:29,3.77137,-2.28218,2.69971,0.4564017,11.6703,1.771143
27-01-2018 23:39,3.64137,-2.282,2.69971,0.8367255,11.6703,3.179101
27-01-2018 23:49,3.55062,-2.2821,2.69971,1.217085,11.6703,4.546021
27-01-2018 23:59,3.47268,-2.28207,2.69971,1.597424,11.6703,5.881422
28-01-2018 00:09,3.39033,-2.28203,2.69971,1.977667,11.6703,7.186694
28-01-2018 00:19,3.26521,-2.28211,2.69971,2.35811,11.6703,8.455117
28-01-2018 00:28,3,-2.28206,2.69971,2.71019,11.6703,9.56645
28-01-2018 00:35,4.20021,4.48319,0.157677,0,0.658226,0
28-01-2018 00:45,4.22178,3.25999,0.712212,0,2.98847,0
28-01-2018 00:55,4.35679,3.26,1.25549,0,5.31697,0
28-01-2018 01:05,4.40018,2.44628,1.74475,0,7.46643,0
28-01-2018 01:15,4.40008,1.78851,2.09381,0,9.00234,0
28-01-2018 01:25,4.40013,1.33103,2.3521,0,10.1389,0
28-01-2018 01:35,4.40007,0.976794,2.54294,0,10.9786,0
28-01-2018 01:45,4.40014,0.712936,2.68265,0,11.5933,0
28-01-2018 01:52,4.28583,0,2.7146,0,11.7339,0
28-01-2018 02:02,3.80972,-2.28218,2.7146,0.3803264,11.7339,1.485069
28-01-2018 02:12,3.66812,-2.28218,2.7146,0.7606819,11.7339,2.905694
28-01-2018 02:22,3.56976,-2.28194,2.7146,1.141011,11.7339,4.281124
28-01-2018 02:32,3.49193,-2.28216,2.7146,1.521355,11.7339,5.623618
28-01-2018 02:42,3.4159,-2.28175,2.7146,1.901705,11.7339,6.937645
28-01-2018 02:52,3.3061,-2.28214,2.7146,2.282035,11.7339,8.217805
28-01-2018 03:02,3.06954,-2.28208,2.7146,2.662378,11.7339,9.438069
28-01-2018 03:09,3.65581,0,0,0,0,0
28-01-2018 03:18,4.20015,3.26,0.615548,0,2.58116,0
28-01-2018 03:28,4.32889,3.25994,1.15844,0,4.89428,0
28-01-2018 03:38,4.40013,2.60679,1.66947,0,7.13386,0
28-01-2018 03:48,4.40004,1.89522,2.03949,0,8.76201,0
28-01-2018 03:58,4.40008,1.41222,2.31333,0,9.96691,0
28-01-2018 04:08,4.40015,1.0416,2.51622,0,10.8596,0
28-01-2018 04:18,4.40005,0.757468,2.66491,0,11.5139,0
28-01-2018 04:27,4.28929,0,2.7207,0,11.7594,0
28-01-2018 04:36,3.84731,-2.28207,2.7207,0.3042629,11.7594,1.195086
28-01-2018 04:46,3.6984,-2.28205,2.7207,0.6846044,11.7594,2.629049
28-01-2018 04:56,3.59043,-2.28212,2.7207,1.064941,11.7594,4.014003
28-01-2018 05:06,3.51,-2.28197,2.7207,1.445281,11.7594,5.363805
28-01-2018 05:16,3.43599,-2.28203,2.7207,1.825626,11.7594,6.684815
28-01-2018 05:26,3.33836,-2.28212,2.7207,2.205972,11.7594,7.974405
28-01-2018 05:36,3.14777,-2.28205,2.7207,2.586302,11.7594,9.21343
28-01-2018 05:44,3.65323,0,2.7207,2.723305,11.7594,9.635559
28-01-2018 05:52,4.20016,3.40936,0.547327,0,2.29463,0
28-01-2018 06:02,4.29863,3.26016,1.05061,0,4.42873,0
28-01-2018 06:12,4.40018,2.80788,1.58043,0,6.74123,0
28-01-2018 06:22,4.40012,2.00427,1.97407,0,8.47331,0
28-01-2018 06:32,4.40012,1.50514,2.26437,0,9.75066,0
28-01-2018 06:42,4.40005,1.11357,2.48137,0,10.7055,0
28-01-2018 06:52,4.40003,0.814905,2.641,0,11.4078,0
28-01-2018 07:01,4.30215,0,2.72774,0,11.7895,0
28-01-2018 07:10,3.88484,-2.28213,2.72774,0.2281965,11.7895,0.9019415
28-01-2018 07:20,3.72972,-2.28204,2.72774,0.6085159,11.7895,2.348917
28-01-2018 07:30,3.61447,-2.28218,2.72774,0.9888804,11.7895,3.744452
28-01-2018 07:40,3.52672,-2.28213,2.72774,1.369214,11.7895,5.10188
28-01-2018 07:50,3.45294,-2.28208,2.72774,1.749558,11.7895,6.429012
28-01-2018 08:00,3.36572,-2.28218,2.72774,2.129856,11.7895,7.726661
28-01-2018 08:10,3.20689,-2.28212,2.72774,2.510237,11.7895,8.980556
28-01-2018 08:20,3.64135,0,2.72774,2.730272,11.7895,9.666832
28-01-2018 08:27,4.20025,3.6986,0.431038,0,1.80604,0
28-01-2018 08:36,4.27236,3.26013,0.943587,0,3.97009,0
28-01-2018 08:46,4.40024,3.05019,1.48429,0,6.31852,0
28-01-2018 08:56,4.40013,2.1307,1.90724,0,8.17955,0
28-01-2018 09:06,4.40007,1.58813,2.21421,0,9.53023,0
28-01-2018 09:16,4.40006,1.18645,2.44416,0,10.5421,0
28-01-2018 09:26,4.40006,0.871483,2.61462,0,11.2921,0
28-01-2018 09:35,4.40011,0.651997,2.7305,0,11.802,0
28-01-2018 09:44,3.92444,-2.28209,2.7305,0.1521281,11.802,0.6053797
28-01-2018 09:54,3.7608,-2.28215,2.7305,0.5324762,11.802,2.065691
28-01-2018 10:04,3.63635,-2.28203,2.7305,0.9127946,11.802,3.470818
28-01-2018 10:14,3.5458,-2.28196,2.7305,1.293154,11.802,4.836102
28-01-2018 10:24,3.46884,-2.28213,2.7305,1.673491,11.802,6.169862
28-01-2018 10:34,3.3881,-2.28211,2.7305,2.053811,11.802,7.474387
28-01-2018 10:44,3.25453,-2.2822,2.7305,2.434171,11.802,8.740705
28-01-2018 10:54,3.60327,0,2.7305,2.73242,11.802,9.680622
28-01-2018 11:01,4.20022,4.09117,0.302611,2.01E-09,1.26651,7.32E-09
28-01-2018 11:10,4.24672,3.25989,0.845935,2.01E-09,3.55337,7.32E-09
28-01-2018 11:20,4.39356,3.25994,1.38924,2.01E-09,5.89902,7.32E-09
28-01-2018 11:30,4.40015,2.25413,1.84078,2.01E-09,7.8858,7.32E-09
28-01-2018 11:40,4.40014,1.67689,2.16521,2.01E-09,9.31333,7.32E-09
28-01-2018 11:50,4.40003,1.2518,2.40802,2.01E-09,10.3817,7.32E-09
28-01-2018 12:00,4.40014,0.926751,2.58843,2.01E-09,11.1755,7.32E-09
28-01-2018 12:10,4.40009,0.675187,2.72089,2.01E-09,11.7584,7.32E-09
28-01-2018 12:18,3.96783,-2.28219,2.73288,0.07605677,11.8111,0.3052363
28-01-2018 12:28,3.79239,-2.28213,2.73288,0.4563902,11.8111,1.778449
28-01-2018 12:38,3.65945,-2.28211,2.73288,0.836738,11.8111,3.194198
28-01-2018 12:48,3.56308,-2.28206,2.73288,1.217086,11.8111,4.566885
28-01-2018 12:58,3.48611,-2.28215,2.73288,1.597388,11.8111,5.906861
28-01-2018 13:08,3.40977,-2.28222,2.73288,1.977769,11.8111,7.218823
28-01-2018 13:18,3.29326,-2.2821,2.73288,2.358109,11.8111,8.495792
28-01-2018 13:28,3,-2.28222,2.73288,2.736314,11.8111,9.698596
28-01-2018 13:35,4.20028,4.55758,0.158972,0,0.663016,0
28-01-2018 13:45,4.22249,3.25985,0.74225,0,3.11401,0
28-01-2018 13:55,4.36009,3.25991,1.28555,0,5.443645,0
28-01-2018 14:05,4.40012,2.40866,1.76967,0,7.57111,0
28-01-2018 14:15,4.40017,1.77124,2.11378,0,9.08522,0
28-01-2018 14:25,4.40001,1.329,2.37067,0,10.2156,0
28-01-2018 14:35,4.40008,0.981576,2.56202,0,11.0575,0
28-01-2018 14:45,4.40006,0.717869,2.70251,0,11.6757,0
28-01-2018 14:53,4.28685,0,2.73697,0,11.8273,0
28-01-2018 15:03,3.82301,-2.28219,2.73697,0.3803015,11.8273,1.488792
28-01-2018 15:13,3.68347,-2.28209,2.73697,0.7606621,11.8273,2.915169
28-01-2018 15:23,3.58276,-2.28213,2.73697,1.14102,11.8273,4.296172
28-01-2018 15:33,3.50082,-2.2822,2.73697,1.521336,11.8273,5.642725
28-01-2018 15:43,3.42573,-2.28213,2.73697,1.901692,11.8273,6.960128
28-01-2018 15:53,3.32192,-2.28205,2.73697,2.282023,11.8273,8.245202
28-01-2018 16:03,3.09759,-2.2821,2.73697,2.662369,11.8273,9.47404
28-01-2018 16:10,3.645,0,0,0,0,0
28-01-2018 16:19,4.20016,3.26,0.631533,0,2.6479,0
28-01-2018 16:29,4.32965,3.25988,1.17447,0,4.96154,0
28-01-2018 16:39,4.40012,2.59671,1.68492,0,7.19873,0
28-01-2018 16:49,4.40007,1.88451,2.05297,0,8.81818,0
28-01-2018 16:59,4.40017,1.40878,2.32535,0,10.0167,0
28-01-2018 17:09,4.39997,1.04474,2.52863,0,10.9111,0
28-01-2018 17:19,4.40006,0.766086,2.67855,0,11.5708,0
28-01-2018 17:28,4.29085,0,2.73792,0,11.832,0
28-01-2018 17:37,3.85806,-2.28214,2.73792,0.3042674,11.832,1.197902
28-01-2018 17:47,3.71033,-2.28218,2.73792,0.6846072,11.832,2.63626
28-01-2018 17:57,3.60261,-2.28212,2.73792,1.06495,11.832,4.025868
28-01-2018 18:07,3.51912,-2.28203,2.73792,1.445284,11.832,5.37974
28-01-2018 18:17,3.44324,-2.2821,2.73792,1.825623,11.832,6.703736
28-01-2018 18:27,3.34838,-2.28215,2.73792,2.20596,11.832,7.996686
28-01-2018 18:37,3.16982,-2.2821,2.73792,2.586298,11.832,9.241405
28-01-2018 18:46,3.644,0,2.73792,2.73744,11.832,9.709321
28-01-2018 18:54,4.20012,3.43214,0.5522753,0,2.31495,0
28-01-2018 19:04,4.30106,3.25996,1.06308,0,4.48129,0
28-01-2018 19:14,4.40016,2.79088,1.59154,0,6.78877,0
28-01-2018 19:24,4.40009,2.00114,1.98406,0,8.51594,0
28-01-2018 19:34,4.40012,1.50103,2.27384,0,9.79098,0
28-01-2018 19:44,4.40012,1.11294,2.49038,0,10.7438,0
28-01-2018 19:54,4.40004,0.816299,2.64986,0,11.4455,0
28-01-2018 20:03,4.30223,0,2.7367,0,11.8276,0
28-01-2018 20:12,3.89248,-2.28211,2.7367,0.2281886,11.8276,0.9032399
28-01-2018 20:22,3.73746,-2.28209,2.7367,0.6085156,11.8276,2.353288
28-01-2018 20:32,3.6222,-2.28207,2.7367,0.9888843,11.8276,3.751704
28-01-2018 20:42,3.53634,-2.28214,2.7367,1.369208,11.8276,5.11238
28-01-2018 20:52,3.46222,-2.28205,2.7367,1.74955,11.8276,6.443151
28-01-2018 21:02,3.37528,-2.2821,2.7367,2.129899,11.8276,7.744627
28-01-2018 21:12,3.22433,-2.28219,2.7367,2.510244,11.8276,9.003349
28-01-2018 21:22,3.63277,0,2.7367,2.73737,11.8276,9.714546
28-01-2018 21:29,4.20021,3.73665,0.434563,0,1.82042,0
28-01-2018 21:38,4.27421,3.25996,0.964447,0,4.0575,0
28-01-2018 21:48,4.40018,3.01159,1.50411,0,6.40273,0
28-01-2018 21:58,4.40009,2.10886,1.9221,0,8.24195,0
28-01-2018 22:08,4.40011,1.58016,2.22716,0,9.58421,0
28-01-2018 22:18,4.40012,1.17941,2.45575,0,10.59,0
28-01-2018 22:28,4.40005,0.862812,2.62467,0,11.3333,0
28-01-2018 22:37,4.40006,0.651995,2.73509,0,11.8192,0
28-01-2018 22:46,3.92586,-2.28212,2.73509,0.1521303,11.8192,0.6055045
28-01-2018 22:56,3.76593,-2.28212,2.73509,0.5324676,11.8192,2.067021
28-01-2018 23:06,3.6409,-2.28209,2.73509,0.9128125,11.8192,3.474074
28-01-2018 23:16,3.54997,-2.28207,2.73509,1.293131,11.8192,4.840753
28-01-2018 23:26,3.47627,-2.28206,2.73509,1.673486,11.8192,6.176588
28-01-2018 23:36,3.39694,-2.28209,2.73509,2.053821,11.8192,7.484527
28-01-2018 23:46,3.26766,-2.28218,2.73509,2.434174,11.8192,8.754824
28-01-2018 23:56,3.59468,0,2.73509,2.735812,11.8192,9.708439
29-01-2018 00:03,4.20022,4.11138,0.303752,0,1.27099,0
29-01-2018 00:12,4.24691,3.25988,0.855644,0,3.59387,0
29-01-2018 00:22,4.3915,3.25992,1.39894,0,5.9389,0
29-01-2018 00:32,4.40019,2.24861,1.85157,0,7.93041,0
29-01-2018 00:42,4.40011,1.6748,2.17513,0,9.35411,0
29-01-2018 00:52,4.40008,1.25398,2.41783,0,10.422,0
29-01-2018 01:02,4.4,0.920324,2.59794,0,11.2145,0
29-01-2018 01:12,4.40006,0.667458,2.72936,0,11.7928,0
29-01-2018 01:20,3.96985,-2.28207,2.73727,0.07604162,11.8276,0.3052909
29-01-2018 01:30,3.79604,-2.28192,2.73727,0.4564012,11.8276,1.77965
29-01-2018 01:40,3.6643,-2.28216,2.73727,0.8367102,11.8276,3.19686
29-01-2018 01:50,3.5677,-2.28201,2.73727,1.217087,11.8276,4.571535
29-01-2018 02:00,3.48932,-2.28203,2.73727,1.597422,11.8276,5.913091
29-01-2018 02:10,3.41394,-2.28202,2.73727,1.977766,11.8276,7.226384
29-01-2018 02:20,3.30155,-2.28206,2.73727,2.358102,11.8276,8.505573
29-01-2018 02:30,3,-2.28212,2.73727,2.735717,11.8276,9.708861
29-01-2018 02:37,4.20018,4.5603,0.159049,0,0.663244,0
29-01-2018 02:46,4.22248,3.25988,0.738828,0,3.09955,0
29-01-2018 02:56,4.35916,3.2599,1.2822,0,5.42948,0
29-01-2018 03:06,4.40017,2.42774,1.76836,0,7.56572,0
29-01-2018 03:16,4.40014,1.778,2.11439,0,9.08828,0
29-01-2018 03:26,4.40014,1.33308,2.37193,0,10.2215,0
29-01-2018 03:36,4.40008,0.986857,2.56405,0,11.0668,0
29-01-2018 03:46,4.40008,0.718051,2.70506,0,11.6873,0
29-01-2018 03:54,4.28785,0,2.73893,0,11.8363,0
29-01-2018 04:04,3.82803,-2.28218,2.73893,0.3803371,11.8363,1.490616
29-01-2018 04:14,3.68769,-2.2821,2.73893,0.760668,11.8363,2.918705
29-01-2018 04:24,3.58781,-2.28183,2.73893,1.141012,11.8363,4.301376
29-01-2018 04:34,3.50678,-2.2821,2.73893,1.521316,11.8363,5.649987
29-01-2018 04:44,3.43171,-2.28201,2.73893,1.901698,11.8363,6.96978
29-01-2018 04:54,3.3314,-2.2821,2.73893,2.282021,11.8363,8.257492
29-01-2018 05:04,3.10643,-2.28206,2.73893,2.662357,11.8363,9.490006
29-01-2018 05:11,3.639431,0,2.73893,2.739066,11.8363,9.724526
29-01-2018 05:19,4.20016,3.43727,0.553564,0,2.32015,0
29-01-2018 05:29,4.30163,3.25986,1.06565,0,4.49196,0
29-01-2018 05:39,4.40018,2.78653,1.59378,0,6.7982,0
29-01-2018 05:49,4.40012,2.00279,1.986,0,8.52405,0
29-01-2018 05:59,4.40012,1.50191,2.27591,0,9.79965,0
29-01-2018 06:09,4.40001,1.11667,2.4928,0,10.754,0
29-01-2018 06:19,4.40003,0.818598,2.65307,0,11.4592,0
29-01-2018 06:28,4.30266,0,2.73944,0,11.8392,0
29-01-2018 06:37,3.89408,-2.28211,2.73944,0.2281747,11.8392,0.9035347
29-01-2018 06:47,3.73983,-2.28209,2.73944,0.6085089,11.8392,2.354351
29-01-2018 06:57,3.62367,-2.28214,2.73944,0.9886883,11.8392,3.75271
29-01-2018 07:07,3.53759,-2.28191,2.73944,1.36922,11.8392,5.114594
29-01-2018 07:17,3.46385,-2.28185,2.73944,1.74957,11.8392,6.445928
29-01-2018 07:27,3.37934,-2.28212,2.73944,2.129904,11.8392,7.748157
29-01-2018 07:37,3.22937,-2.28213,2.73944,2.510229,11.8392,9.008654
29-01-2018 07:47,3.6291,0,2.73944,2.738432,11.8392,9.724072
29-01-2018 07:54,4.20016,3.74147,0.435085,0,1.82249,0
29-01-2018 08:03,4.27441,3.25991,0.965224,0,4.06071,0
29-01-2018 08:13,4.40018,3.0177,1.50504,0,6.40654,0
29-01-2018 08:23,4.40013,2.10653,1.92297,0,8.2455,0
29-01-2018 08:33,4.40007,1.58059,2.22772,0,9.58643,0
29-01-2018 08:43,4.40013,1.18124,2.45665,0,10.5937,0
29-01-2018 08:53,4.40006,0.866937,2.62619,0,11.3398,0
29-01-2018 09:02,4.40003,0.651997,2.7372,0,11.8282,0
29-01-2018 09:11,3.92906,-2.28186,2.7372,0.1521298,11.8282,0.6059343
29-01-2018 09:21,3.76855,-2.28212,2.7372,0.5324647,11.8282,2.0686
29-01-2018 09:31,3.64354,-2.28201,2.7372,0.9127471,11.8282,3.476416
29-01-2018 09:41,3.55231,-2.28199,2.7372,1.293103,11.8282,4.844272
29-01-2018 09:51,3.47761,-2.28218,2.7372,1.673463,11.8282,6.180717
29-01-2018 10:01,3.40108,-2.28212,2.7372,2.053811,11.8282,7.489471
29-01-2018 10:11,3.27183,-2.28216,2.7372,2.43415,11.8282,8.761314
29-01-2018 10:21,3.59104,0,2.7372,2.737488,11.8282,9.721443
29-01-2018 11:57,4.20019,4.00925,0.295603,0,1.23914,0
29-01-2018 12:06,4.24525,3.25994,0.823397,0,3.46064,0
29-01-2018 12:16,4.38732,3.25982,1.36673,0,5.80413,0
29-01-2018 12:26,4.4001,2.27634,1.82464,0,7.81872,0
29-01-2018 12:36,4.40009,1.69086,2.15169,0,9.25778,0
29-01-2018 12:46,4.40014,1.27634,2.39764,0,10.34,0
29-01-2018 12:56,4.40008,0.944318,2.58159,0,11.1494,0
29-01-2018 13:06,4.40014,0.687198,2.71632,0,11.7422,0
29-01-2018 13:15,3.97223,-2.28209,2.73464,0.076046,11.8228,0.305471
29-01-2018 13:25,3.7993,-2.28208,2.73464,0.4564017,11.8228,1.781002
29-01-2018 13:35,3.66521,-2.28215,2.73464,0.8367237,11.8228,3.199127
29-01-2018 13:45,3.56892,-2.2821,2.73464,1.217074,11.8228,4.574164
29-01-2018 13:55,3.49051,-2.28214,2.73464,1.597413,11.8228,5.916312
29-01-2018 14:05,3.41853,-2.28216,2.73464,1.977733,11.8228,7.230242
29-01-2018 14:15,3.3132,-2.28208,2.73464,2.358093,11.8228,8.513488
29-01-2018 14:25,3,-2.28205,2.73464,2.735842,11.8228,9.719327
29-01-2018 14:32,4.2002,4.61751,0.160045,0,0.66712,0
29-01-2018 14:42,4.22247,3.25991,0.761627,0,3.19499,0
29-01-2018 14:52,4.36126,3.25987,1.30499,0,5.52532,0
29-01-2018 15:02,4.40009,2.39151,1.78756,0,7.64604,0
29-01-2018 15:12,4.4001,1.75817,2.12874,0,9.1473,0
29-01-2018 15:22,4.40009,1.31813,2.38357,0,10.2686,0
29-01-2018 15:32,4.40011,0.974496,2.57345,0,11.1041,0
29-01-2018 15:42,4.40002,0.708002,2.7127,0,11.7168,0
29-01-2018 15:49,4.28829,0,2.74111,0,11.8418,0
29-01-2018 15:59,3.83129,-2.28211,2.74111,0.380325,11.8418,1.491779
29-01-2018 16:09,3.69155,-2.28208,2.74111,0.7606787,11.8418,2.92144
29-01-2018 16:19,3.58915,-2.28209,2.74111,1.141009,11.8418,4.305092
29-01-2018 16:29,3.50618,-2.2821,2.74111,1.521336,11.8418,5.653923
29-01-2018 16:39,3.43353,-2.2822,2.74111,1.901685,11.8418,6.973833
29-01-2018 16:49,3.33351,-2.28216,2.74111,2.282023,11.8418,8.262417
29-01-2018 16:59,3.10782,-2.28213,2.74111,2.662363,11.8418,9.49556
29-01-2018 17:06,3.6375,0,2.74111,2.738608,11.8418,9.728734
29-01-2018 17:14,4.20013,3.47177,0.559216,0,2.34362,0
29-01-2018 17:46,4.20545,3.2599,0.980975,0,4.11673,0
29-01-2018 17:59,4.29521,3.25984,1.46347,0,6.1621,0
29-01-2018 18:09,4.40018,2.29057,1.95073,0,8.29501,0
29-01-2018 18:19,4.40013,1.58574,2.26754,0,9.68904,0
29-01-2018 18:29,4.40008,1.14398,2.49295,0,10.6809,0
29-01-2018 18:39,4.40004,0.824003,2.65555,0,11.3963,0
29-01-2018 18:48,4.30328,0,2.74149,0,11.7744,0
29-01-2018 18:57,3.89822,-2.28204,2.74149,0.2282055,11.7744,0.9044806
29-01-2018 19:07,3.74369,-2.28208,2.74149,0.6084594,11.7744,2.356656
29-01-2018 19:17,3.62747,-2.28203,2.74149,0.9888823,11.7744,3.757226
29-01-2018 19:27,3.53901,-2.28214,2.74149,1.369214,11.7744,5.119696
29-01-2018 19:37,3.46434,-2.28206,2.74149,1.749522,11.7744,6.4512
29-01-2018 19:47,3.38167,-2.28209,2.74149,2.129864,11.7744,7.754028
29-01-2018 19:57,3.23339,-2.28207,2.74149,2.510218,11.7744,9.015685
29-01-2018 20:05,3.59025,0,2.74149,2.740156,11.7744,9.737176
29-01-2018 20:12,4.20021,4.16207,0.306564,0,1.28252,0
29-01-2018 20:22,4.24849,3.25982,0.872664,0,3.66526,0
29-01-2018 20:32,4.39483,3.2602,1.41599,0,6.01191,0
29-01-2018 20:42,4.40012,2.23535,1.86507,0,7.9879,0
29-01-2018 20:52,4.40009,1.66248,2.18677,0,9.40342,0
29-01-2018 21:02,4.4001,1.23871,2.42681,0,10.4596,0
29-01-2018 21:12,4.40011,0.909119,2.60461,0,11.2419,0
29-01-2018 21:22,4.40005,0.659524,2.73441,0,11.8131,0
29-01-2018 21:29,3.9759,-2.28201,2.73828,0.07604769,11.8301,0.3057101
29-01-2018 21:39,3.80209,-2.28201,2.73828,0.4563624,11.8301,1.782351
29-01-2018 21:49,3.66873,-2.28212,2.73828,0.8366942,11.8301,3.201702
29-01-2018 21:59,3.57264,-2.2821,2.73828,1.217043,11.8301,4.578131
29-01-2018 22:09,3.49495,-2.28212,2.73828,1.597412,11.8301,5.921847
29-01-2018 22:19,3.42001,-2.28203,2.73828,1.977741,11.8301,7.237244
29-01-2018 22:29,3.30883,-2.28203,2.73828,2.358038,11.8301,8.51883
29-01-2018 22:39,3.00254,-2.28205,2.73828,2.73839,11.8301,9.733504
29-01-2018 22:44,3.63553,0,0,0,0,0
29-01-2018 22:54,4.20016,3.25998,0.662088,0,2.77549,0
29-01-2018 23:04,4.3328,3.2599,1.20499,0,5.08988,0
29-01-2018 23:14,4.40015,2.56274,1.71225,0,7.31379,0
29-01-2018 23:24,4.40016,1.86385,2.07542,0,8.91181,0
29-01-2018 23:34,4.40014,1.39325,2.34523,0,10.099,0
29-01-2018 23:44,4.4001,1.02535,2.54546,0,10.98,0
29-01-2018 23:54,4.40005,0.744843,2.69178,0,11.6238,0
30-01-2018 00:02,4.29155,0,2.73941,0,11.8334,0
30-01-2018 00:11,3.86415,-2.28203,2.73941,0.3042369,11.8334,1.199421
30-01-2018 00:21,3.71553,-2.28203,2.73941,0.6845986,11.8334,2.640134
30-01-2018 00:31,3.60769,-2.28207,2.73941,1.064934,11.8334,4.031572
30-01-2018 00:41,3.52408,-2.28214,2.73941,1.445272,11.8334,5.387195
30-01-2018 00:51,3.45113,-2.28205,2.73941,1.825621,11.8334,6.713611
30-01-2018 01:01,3.36093,-2.28201,2.73941,2.205945,11.8334,8.010357
30-01-2018 01:11,3.17914,-2.28204,2.73941,2.5863,11.8334,9.259474
30-01-2018 01:20,3.63644,0,2.73941,2.735946,11.8334,9.723621
30-01-2018 01:28,4.2002,3.48811,0.560419,0,2.34862,0
30-01-2018 01:38,4.30306,3.2598,1.09324,0,4.6077,0
30-01-2018 01:48,4.40017,2.76061,1.61996,0,6.90843,0
30-01-2018 01:58,4.40009,1.97413,2.00735,0,8.61302,0
30-01-2018 02:08,4.40009,1.48289,2.29327,0,9.87111,0
30-01-2018 02:18,4.40004,1.09666,2.50687,0,10.8109,0
30-01-2018 02:28,4.40007,0.796889,2.66357,0,11.5004,0
30-01-2018 02:36,4.30331,0,2.7373,0,11.8249,0
30-01-2018 02:45,3.89996,-2.28205,2.7373,0.2281856,11.8249,0.9046893
30-01-2018 02:55,3.74628,-2.28208,2.7373,0.6084808,11.8249,2.35792
30-01-2018 03:05,3.62863,-2.28204,2.7373,0.9888824,11.8249,3.759239
30-01-2018 03:15,3.54082,-2.282,2.7373,1.369207,11.8249,5.121821
30-01-2018 03:25,3.46684,-2.2821,2.7373,1.749551,11.8249,6.454083
30-01-2018 03:35,3.38386,-2.28177,2.7373,2.129899,11.8249,7.757863
30-01-2018 03:45,3.23341,-2.28184,2.7373,2.510196,11.8249,9.020058
30-01-2018 03:55,3.62635,0,2.7373,2.735883,11.8249,9.728189
30-01-2018 04:02,4.20018,3.77182,0.438008,0,1.83457,0
30-01-2018 04:11,4.27389,3.25986,0.977918,0,4.11375,0
30-01-2018 04:21,4.40023,3.00365,1.5174,0,6.45803,0
30-01-2018 04:31,4.40021,2.08871,1.93242,0,8.2842,0
30-01-2018 04:41,4.40012,1.56674,2.2342,0,9.61205,0
30-01-2018 04:51,4.40007,1.17364,2.46124,0,10.6111,0
30-01-2018 05:01,4.40009,0.860879,2.6298,0,11.3527,0
30-01-2018 05:10,4.40007,0.651993,2.73647,0,11.8221,0
30-01-2018 05:19,3.93473,-2.28205,2.73647,0.1521301,11.8221,0.6066677
30-01-2018 05:29,3.776,-2.28198,2.73647,0.5324259,11.8221,2.071638
30-01-2018 05:39,3.65047,-2.28212,2.73647,0.9127964,11.8221,3.482559
30-01-2018 05:49,3.5576,-2.28203,2.73647,1.293146,11.8221,4.852501
30-01-2018 05:59,3.48067,-2.28196,2.73647,1.673485,11.8221,6.190578
30-01-2018 06:09,3.40385,-2.28208,2.73647,2.053778,11.8221,7.500193
30-01-2018 06:19,3.27799,-2.28202,2.73647,2.434093,11.8221,8.773617
30-01-2018 06:29,3.58737,0,2.73647,2.738289,11.8221,9.737978
30-01-2018 06:36,4.20025,4.17006,0.307004,0,1.28415,0
30-01-2018 06:45,4.24713,3.26013,0.870339,0,3.65515,0
30-01-2018 06:55,4.39218,3.26,1.41381,0,6.00123,0
30-01-2018 07:05,4.40009,2.23465,1.86483,0,7.98569,0
30-01-2018 07:15,4.40007,1.65246,2.18518,0,9.39526,0
30-01-2018 07:25,4.40002,1.23509,2.42454,0,10.4485,0
30-01-2018 07:35,4.40001,0.911389,2.60233,0,11.2307,0
30-01-2018 07:45,4.40017,0.662488,2.73251,0,11.8035,0
30-01-2018 07:53,3.97638,-2.2821,2.73753,0.07603139,11.8256,0.3056779
30-01-2018 08:03,3.8026,-2.28215,2.73753,0.456397,11.8256,1.782675
30-01-2018 08:13,3.67026,-2.28206,2.73753,0.8367463,11.8256,3.202407
30-01-2018 08:23,3.57331,-2.28206,2.73753,1.216999,11.8256,4.578771
30-01-2018 08:33,3.49398,-2.28214,2.73753,1.597405,11.8256,5.92251
30-01-2018 08:43,3.41922,-2.28219,2.73753,1.977773,11.8256,7.23764
30-01-2018 08:53,3.30645,-2.28206,2.73753,2.35811,11.8256,8.518867
30-01-2018 09:03,3,-2.28211,2.73753,2.735256,11.8256,9.722481
30-01-2018 09:10,4.20018,4.64409,0.160437,0,0.668478,0
30-01-2018 09:20,4.22297,3.26023,0.763665,0,3.20328,0
30-01-2018 09:30,4.36209,3.25986,1.30698,0,5.53393,0
30-01-2018 09:40,4.40004,2.3962,1.78939,0,7.65408,0
30-01-2018 09:50,4.40007,1.75142,2.13064,0,9.15562,0
30-01-2018 10:00,4.40014,1.3078,2.38407,0,10.2707,0
30-01-2018 10:10,4.40002,0.963231,2.57204,0,11.0978,0
30-01-2018 10:20,4.40008,0.703317,2.7099,0,11.7044,0
30-01-2018 10:27,4.2887,0,2.73577,0,11.8183,0
30-01-2018 10:37,3.83366,-2.28215,2.73577,0.3803402,11.8183,1.49276
30-01-2018 10:47,3.6929,-2.28211,2.73577,0.7606689,11.8183,2.922882
30-01-2018 10:57,3.59151,-2.28212,2.73577,1.141022,11.8183,4.307232
30-01-2018 11:07,3.5093,-2.28184,2.73577,1.521356,11.8183,5.657154
30-01-2018 11:17,3.43516,-2.28216,2.73577,1.901684,11.8183,6.97785
30-01-2018 11:27,3.33441,-2.28214,2.73577,2.282016,11.8183,8.26694
30-01-2018 11:37,3.10256,-2.28216,2.73577,2.662377,11.8183,9.49979
30-01-2018 11:44,3.63596,0,0,0,0,0
30-01-2018 11:53,4.2002,3.26,0.653386,0,2.73902,0
30-01-2018 12:03,4.33275,3.25986,1.19629,0,5.0534,0
30-01-2018 12:13,4.40015,2.57134,1.70395,0,7.27907,0
30-01-2018 12:23,4.4001,1.86115,2.06816,0,8.88162,0
30-01-2018 12:33,4.4001,1.38861,2.33701,0,10.0646,0
30-01-2018 12:43,4.40004,1.02508,2.53679,0,10.9436,0
30-01-2018 12:53,4.39994,0.745986,2.68353,0,11.5893,0
30-01-2018 13:02,4.29187,0,2.73296,0,11.8068,0
30-01-2018 13:11,3.86736,-2.28213,2.73296,0.3042748,11.8068,1.200364
30-01-2018 13:21,3.71886,-2.28203,2.73296,0.6846049,11.8068,2.6422
30-01-2018 13:31,3.61033,-2.28213,2.73296,1.064937,11.8068,4.034705
30-01-2018 13:41,3.52602,-2.28214,2.73296,1.445294,11.8068,5.391421
30-01-2018 13:51,3.45192,-2.28195,2.73296,1.82557,11.8068,6.718
30-01-2018 14:01,3.36053,-2.28209,2.73296,2.205974,11.8068,8.015025
30-01-2018 14:11,3.17684,-2.28221,2.73296,2.586322,11.8068,9.263882
30-01-2018 14:19,3.63579,0,2.73296,2.731669,11.8068,9.714474
30-01-2018 14:27,4.20017,3.48111,0.559888,0,2.34637,0
30-01-2018 14:37,4.30366,3.25994,1.08968,0,4.5929,0
30-01-2018 14:47,4.40014,2.75416,1.61563,0,6.89059,0
30-01-2018 14:57,4.40014,1.9695,2.00253,0,8.59304,0
30-01-2018 15:07,4.40006,1.47124,2.2874,0,9.84647,0
30-01-2018 15:17,4.40003,1.09091,2.49972,0,10.7807,0
30-01-2018 15:27,4.40005,0.797106,2.65591,0,11.4679,0
30-01-2018 15:35,4.30303,0,2.73083,0,11.7976,0
30-01-2018 15:44,3.90005,-2.28221,2.73083,0.2281852,11.7976,0.9046779
30-01-2018 15:54,3.74653,-2.28202,2.73083,0.6085258,11.7976,2.358039
30-01-2018 16:04,3.62836,-2.28189,2.73083,0.9888639,11.7976,3.759044
30-01-2018 16:14,3.53989,-2.28175,2.73083,1.369182,11.7976,5.121646
30-01-2018 16:24,3.46515,-2.28216,2.73083,1.749557,11.7976,6.453661
30-01-2018 16:34,3.38099,-2.28215,2.73083,2.129897,11.7976,7.756496
30-01-2018 16:44,3.22926,-2.2822,2.73083,2.510237,11.7976,9.017447
30-01-2018 16:54,3.62586,0,2.73083,2.729159,11.7976,9.703746
30-01-2018 17:01,4.20017,3.75927,0.437338,0,1.83176,0
30-01-2018 17:11,4.27458,3.25994,0.970319,0,4.08198,0
30-01-2018 17:21,4.40014,3.00554,1.50986,0,6.42687,0
30-01-2018 17:31,4.40015,2.09404,1.92585,0,8.25729,0
30-01-2018 17:41,4.40012,1.56327,2.22782,0,9.58599,0
30-01-2018 17:51,4.40013,1.16747,2.45395,0,10.581,0
30-01-2018 18:01,4.40003,0.855795,2.62131,0,11.3174,0
30-01-2018 18:09,4.4001,0.651995,2.72784,0,11.7861,0
30-01-2018 18:18,3.93343,-2.28217,2.72784,0.1521175,11.7861,0.6064198
30-01-2018 18:28,3.77343,-2.28212,2.72784,0.5324708,11.7861,2.070994
30-01-2018 18:38,3.64707,-2.28222,2.72784,0.9128089,11.7861,3.48057
30-01-2018 18:48,3.55503,-2.28209,2.72784,1.293141,11.7861,4.849574
30-01-2018 18:58,3.47902,-2.2821,2.72784,1.673483,11.7861,6.186835
30-01-2018 19:08,3.40049,-2.28206,2.72784,2.053807,11.7861,7.495734
30-01-2018 19:18,3.27018,-2.28208,2.72784,2.434176,11.7861,8.767161
30-01-2018 19:28,3.58749,0,2.72784,2.728266,11.7861,9.697697
30-01-2018 19:35,4.20024,4.1601,0.306625,0,1.28261,0
30-01-2018 19:45,4.24831,3.25987,0.868084,0,3.64584,0
30-01-2018 19:55,4.39523,3.25984,1.4114,0,5.99247,0
30-01-2018 20:05,4.40012,2.22625,1.85955,0,7.96434,0
30-01-2018 20:15,4.40004,1.64831,2.17919,0,9.37082,0
30-01-2018 20:25,4.40009,1.23345,2.41793,0,10.4213,0
30-01-2018 20:35,4.40004,0.907079,2.59516,0,11.2011,0
30-01-2018 20:45,4.39997,0.657781,2.72461,0,11.7707,0
30-01-2018 20:52,3.97542,-2.28219,2.72782,0.07606456,11.7848,0.3057267
30-01-2018 21:02,3.80255,-2.28198,2.72782,0.4563847,11.7848,1.78244
30-01-2018 21:12,3.66787,-2.28221,2.72782,0.8367029,11.7848,3.201596
30-01-2018 21:22,3.57149,-2.28212,2.72782,1.217071,11.7848,4.577748
30-01-2018 21:32,3.49277,-2.2822,2.72782,1.597417,11.7848,5.920753
30-01-2018 21:42,3.41702,-2.28211,2.72782,1.977747,11.7848,7.235159
30-01-2018 21:52,3.30334,-2.28213,2.72782,2.358041,11.7848,8.515196
30-01-2018 22:02,3,-2.2821,2.72782,2.725489,11.7848,9.687011
30-01-2018 22:09,4.20024,4.63243,0.160278,0,0.66795,0
30-01-2018 22:18,4.22333,3.25988,0.760127,0,3.1886,0
30-01-2018 22:28,4.36322,3.25992,1.30342,0,5.5196,0
30-01-2018 22:38,4.4001,2.38136,1.78399,0,7.63178,0
30-01-2018 22:48,4.40013,1.75029,2.12418,0,9.12869,0
30-01-2018 22:58,4.40009,1.30617,2.3771,0,10.2415,0
30-01-2018 23:08,4.4,0.96353,2.56505,0,11.0685,0
30-01-2018 23:18,4.40005,0.69926,2.70272,0,11.6743,0
30-01-2018 23:25,4.28837,0,2.72751,0,11.7834,0
30-01-2018 23:35,3.83454,-2.28218,2.72751,0.3803182,11.7834,1.492579
30-01-2018 23:45,3.69318,-2.28215,2.72751,0.7606443,11.7834,2.923075
30-01-2018 23:55,3.59081,-2.282,2.72751,1.141005,11.7834,4.307525
31-01-2018 00:05,3.5086,-2.28202,2.72751,1.521309,11.7834,5.657048
31-01-2018 00:15,3.43458,-2.28215,2.72751,1.901686,11.7834,6.977636
31-01-2018 00:25,3.33239,-2.28218,2.72751,2.282041,11.7834,8.266283
31-01-2018 00:35,3.09411,-2.28205,2.72751,2.662361,11.7834,9.497635
31-01-2018 00:42,3.6357,0,0,0,0,0
31-01-2018 00:52,4.20014,3.26,0.646848,0,2.7117,0
31-01-2018 01:02,4.33285,3.26014,1.1897,0,5.02576,0
31-01-2018 01:12,4.40013,2.55665,1.69639,0,7.2473,0
31-01-2018 01:22,4.40008,1.85431,2.05857,0,8.84092,0
31-01-2018 01:32,4.40007,1.38914,2.32695,0,10.0218,0
31-01-2018 01:42,4.40007,1.02917,2.52729,0,10.9033,0
31-01-2018 01:52,4.40009,0.752352,2.67476,0,11.5522,0
31-01-2018 02:00,4.29163,0,2.72665,0,11.7805,0
31-01-2018 02:09,3.8666,-2.28211,2.72665,0.3042351,11.7805,1.199914
31-01-2018 02:19,3.71887,-2.28195,2.72665,0.6846131,11.7805,2.641868
31-01-2018 02:29,3.61048,-2.28212,2.72665,1.064937,11.7805,4.034663
31-01-2018 02:39,3.52563,-2.2821,2.72665,1.445283,11.7805,5.39118
31-01-2018 02:49,3.45154,-2.28213,2.72665,1.825621,11.7805,6.718014
31-01-2018 02:59,3.3599,-2.2821,2.72665,2.205972,11.7805,8.014764
31-01-2018 03:09,3.1734,-2.28209,2.72665,2.586271,11.7805,9.262975
31-01-2018 03:18,3.63466,0,2.72665,2.727146,11.7805,9.699409
31-01-2018 03:26,4.20021,3.46615,0.558303,0,2.33974,0
31-01-2018 03:35,4.30328,3.25993,1.08236,0,4.56219,0
31-01-2018 03:45,4.40016,2.76129,1.60917,0,6.86324,0
31-01-2018 03:55,4.40018,1.96644,1.99605,0,8.56556,0
31-01-2018 04:05,4.40013,1.47149,2.28033,0,9.81645,0
31-01-2018 04:15,4.40003,1.09328,2.49276,0,10.7512,0
31-01-2018 04:25,4.4001,0.800425,2.6494,0,11.4404,0
31-01-2018 04:34,4.30252,0,2.72509,0,11.7734,0
31-01-2018 04:43,3.89839,-2.28206,2.72509,0.2281241,11.7734,0.9040979
31-01-2018 04:53,3.74415,-2.28203,2.72509,0.6085386,11.7734,2.356966
31-01-2018 05:03,3.62871,-2.28215,2.72509,0.9888747,11.7734,3.757715
31-01-2018 05:13,3.54017,-2.28203,2.72509,1.369157,11.7734,5.120173
31-01-2018 05:23,3.46581,-2.2821,2.72509,1.749533,11.7734,6.452401
31-01-2018 05:33,3.38173,-2.28213,2.72509,2.129875,11.7734,7.755578
31-01-2018 05:43,3.22772,-2.28219,2.72509,2.510215,11.7734,9.01651
31-01-2018 05:52,3.62385,0,2.72509,2.72528,11.7734,9.69056
31-01-2018 05:59,4.20021,3.7767,0.439081,2.72E-10,1.83889,9.88E-10
31-01-2018 06:09,4.27448,3.2602,0.978278,2.72E-10,4.11518,9.88E-10
31-01-2018 06:19,4.40018,3.00825,1.51793,2.72E-10,6.46028,9.88E-10
31-01-2018 06:29,4.40013,2.08903,1.93363,2.72E-10,8.28945,9.88E-10
31-01-2018 06:39,4.40004,1.55403,2.23444,2.72E-10,9.61302,9.88E-10
31-01-2018 06:49,4.40011,1.15674,2.45895,2.72E-10,10.6009,9.88E-10
31-01-2018 06:59,4.40012,0.846883,2.62468,2.72E-10,11.3301,9.88E-10
31-01-2018 07:07,4.40006,0.651999,2.72541,2.72E-10,11.7733,9.88E-10
31-01-2018 07:16,3.93367,-2.28192,2.72541,0.1521079,11.7733,0.6064273
31-01-2018 07:26,3.77289,-2.28209,2.72541,0.5324498,11.7733,2.070882
31-01-2018 07:36,3.64773,-2.28184,2.72541,0.9128007,11.7733,3.480659
31-01-2018 07:46,3.55565,-2.28211,2.72541,1.293146,11.7733,4.849945
31-01-2018 07:56,3.47894,-2.28196,2.72541,1.673489,11.7733,6.187366
31-01-2018 08:06,3.40027,-2.28213,2.72541,2.05383,11.7733,7.496301
31-01-2018 08:16,3.26937,-2.2821,2.72541,2.434134,11.7733,8.767509
31-01-2018 08:26,3.58684,0,2.72541,2.723952,11.7733,9.684365
31-01-2018 08:33,4.20023,4.15343,0.306203,0,1.2809,0
31-01-2018 08:42,4.24815,3.25992,0.865691,0,3.63583,0
31-01-2018 08:52,4.39382,3.25992,1.40902,0,5.98215,0
31-01-2018 09:02,4.40013,2.23101,1.85834,0,7.95919,0
31-01-2018 09:12,4.40015,1.65134,2.17852,0,9.36802,0
31-01-2018 09:22,4.40005,1.23084,2.41725,0,10.4185,0
31-01-2018 09:32,4.40005,0.904425,2.5941,0,11.1966,0
31-01-2018 09:42,4.4001,0.655517,2.72307,0,11.7641,0
31-01-2018 09:49,3.97682,-2.28217,2.72408,0.07606294,11.7685,0.305812
31-01-2018 09:59,3.8033,-2.28212,2.72408,0.4563905,11.7685,1.783037
31-01-2018 10:09,3.67042,-2.28212,2.72408,0.8367238,11.7685,3.202996
31-01-2018 10:19,3.57377,-2.28217,2.72408,1.217072,11.7685,4.579832
31-01-2018 10:29,3.49461,-2.28217,2.72408,1.597394,11.7685,5.923533
31-01-2018 10:39,3.4188,-2.28206,2.72408,1.977718,11.7685,7.238463
31-01-2018 10:49,3.30391,-2.28178,2.72408,2.358088,11.7685,8.519302
31-01-2018 10:59,3,-2.28195,2.72408,2.72368,11.7685,9.685195
31-01-2018 11:06,4.20021,4.61917,0.160093,0,0.6672,0
31-01-2018 11:16,4.19463,3.25985,0.7542,0,3.16314,0
31-01-2018 11:26,4.36141,3.25987,1.29745,0,5.48791,0
31-01-2018 11:36,4.40015,2.38487,1.77857,0,7.60233,0
31-01-2018 11:46,4.40014,1.74946,2.11872,0,9.09906,0
31-01-2018 11:56,4.40008,1.30785,2.37182,0,10.2127,0
31-01-2018 12:06,4.40014,0.966578,2.56013,0,11.0413,0
31-01-2018 12:16,4.40008,0.704159,2.69825,0,11.649,0
31-01-2018 12:23,4.28837,0,2.72505,0,11.767,0
31-01-2018 12:33,3.83418,-2.28211,2.72505,0.3803366,11.767,1.492798
31-01-2018 12:43,3.69412,-2.28219,2.72505,0.7606589,11.767,2.923402
31-01-2018 12:53,3.59215,-2.28209,2.72505,1.140983,11.767,4.30807
31-01-2018 13:03,3.50997,-2.28174,2.72505,1.521352,11.767,5.658295
31-01-2018 13:13,3.43605,-2.28209,2.72505,1.901662,11.767,6.979212
31-01-2018 13:23,3.33452,-2.28201,2.72505,2.28202,11.767,8.268581
31-01-2018 13:33,3.09485,-2.28208,2.72505,2.662357,11.767,9.500683
31-01-2018 13:40,3.63364,0,0,0,0,0
31-01-2018 13:49,4.20011,3.25999,0.646606,7.04E-10,2.71057,2.56E-09
31-01-2018 13:59,4.3321,3.25994,1.18953,7.04E-10,5.02478,2.56E-09
31-01-2018 14:09,4.40018,2.55655,1.69631,7.04E-10,7.24654,2.56E-09
31-01-2018 14:19,4.40013,1.8549,2.05845,7.04E-10,8.84002,2.56E-09
31-01-2018 14:29,4.40011,1.39112,2.32709,7.04E-10,10.0221,2.56E-09
31-01-2018 14:39,4.40007,1.02782,2.52726,7.04E-10,10.9028,2.56E-09
31-01-2018 14:49,4.40004,0.749103,2.67428,7.04E-10,11.5497,2.56E-09
31-01-2018 14:57,4.29135,0,2.72427,7.04E-10,11.7697,2.56E-09
31-01-2018 15:06,3.86477,-2.28214,2.72427,0.3042316,11.7697,1.199633
31-01-2018 15:16,3.71795,-2.28212,2.72427,0.6846043,11.7697,2.641098
31-01-2018 15:26,3.60957,-2.28215,2.72427,1.064951,11.7697,4.033391
31-01-2018 15:36,3.52472,-2.28207,2.72427,1.44528,11.7697,5.389593
31-01-2018 15:46,3.45097,-2.28213,2.72427,1.825619,11.7697,6.716028
31-01-2018 15:56,3.35944,-2.28169,2.72427,2.205888,11.7697,8.012248
31-01-2018 16:06,3.17173,-2.2821,2.72427,2.586306,11.7697,9.260493
31-01-2018 16:15,3.63346,0,2.72427,2.723602,11.7697,9.685712
31-01-2018 16:23,4.20021,3.47673,0.559619,0,2.34515,0
31-01-2018 16:33,4.303,3.25996,1.08753,0,4.58367,0
31-01-2018 16:43,4.40016,2.76079,1.61414,0,6.88388,0
31-01-2018 16:53,4.40014,1.96197,2.00027,0,8.58293,0
31-01-2018 17:03,4.40009,1.46723,2.28388,0,9.83081,0
31-01-2018 17:13,4.40001,1.08724,2.49546,0,10.7618,0
31-01-2018 17:23,4.40002,0.793006,2.65115,0,11.4468,0
31-01-2018 17:31,4.30279,0,2.72371,0,11.7661,0
31-01-2018 17:40,3.89805,-2.28214,2.72371,0.2281829,11.7661,0.9044092
31-01-2018 17:50,3.74477,-2.28205,2.72371,0.6085446,11.7661,2.357188
31-01-2018 18:00,3.62824,-2.28181,2.72371,0.9888651,11.7661,3.757776
31-01-2018 18:10,3.53974,-2.28181,2.72371,1.369223,11.7661,5.12043
31-01-2018 18:20,3.46493,-2.28213,2.72371,1.749566,11.7661,6.452277
31-01-2018 18:30,3.38057,-2.28205,2.72371,2.129908,11.7661,7.755044
31-01-2018 18:40,3.22649,-2.282,2.72371,2.510246,11.7661,9.015537
31-01-2018 18:49,3.62316,0,2.72371,2.722803,11.7661,9.681569
31-01-2018 18:56,4.20021,3.77434,0.4383,0,1.83566,0
31-01-2018 19:06,4.27443,3.25987,0.978249,0,4.11519,0
31-01-2018 19:16,4.40015,3.00175,1.51768,0,6.45957,0
31-01-2018 19:26,4.4001,2.08485,1.93227,0,8.28385,0
31-01-2018 19:36,4.40014,1.55647,2.23284,0,9.60636,0
31-01-2018 19:46,4.40004,1.15646,2.4576,0,10.5954,0
31-01-2018 19:56,4.40004,0.845957,2.62353,0,11.3255,0
31-01-2018 20:04,4.40003,0.651999,2.7234,0,11.7649,0
31-01-2018 20:13,3.93436,-2.28213,2.7234,0.1521252,11.7649,0.6066236
31-01-2018 20:23,3.77438,-2.28213,2.7234,0.532462,11.7649,2.071476
31-01-2018 20:33,3.64865,-2.28211,2.7234,0.9128068,11.7649,3.481566
31-01-2018 20:43,3.55649,-2.28206,2.7234,1.293153,11.7649,4.851195
31-01-2018 20:53,3.48,-2.28188,2.7234,1.673483,11.7649,6.188917
31-01-2018 21:03,3.40046,-2.2822,2.7234,2.053831,11.7649,7.498108
31-01-2018 21:13,3.26873,-2.28212,2.7234,2.434173,11.7649,8.769307
31-01-2018 21:23,3.58578,0,2.7234,2.721842,11.7649,9.679309
31-01-2018 21:30,4.20026,4.1518,0.306445,1.33E-09,1.28185,4.82E-09
31-01-2018 21:39,4.24789,3.25993,0.864759,1.33E-09,3.63184,4.82E-09
31-01-2018 21:49,4.39499,3.25984,1.408,1.33E-09,5.97801,4.82E-09
31-01-2018 21:59,4.40014,2.22257,1.85603,1.33E-09,7.94934,4.82E-09
31-01-2018 22:09,4.40009,1.64684,2.17513,1.33E-09,9.35343,4.82E-09
31-01-2018 22:19,4.4,1.23004,2.41342,1.33E-09,10.4019,4.82E-09
31-01-2018 22:29,4.40008,0.906389,2.59043,1.33E-09,11.1808,4.82E-09
31-01-2018 22:39,4.40004,0.657387,2.71969,1.33E-09,11.7495,4.82E-09
31-01-2018 22:47,3.97713,-2.28209,2.7229,0.07606699,11.7637,0.3058622
31-01-2018 22:57,3.8056,-2.28209,2.7229,0.4564043,11.7637,1.783563
31-01-2018 23:07,3.67128,-2.28201,2.7229,0.8367454,11.7637,3.204003
31-01-2018 23:17,3.57434,-2.28209,2.7229,1.217071,11.7637,4.581105
31-01-2018 23:27,3.49513,-2.282,2.7229,1.597428,11.7637,5.925076
31-01-2018 23:37,3.42014,-2.28205,2.7229,1.977766,11.7637,7.24059
31-01-2018 23:47,3.3047,-2.28208,2.7229,2.358102,11.7637,8.521712
31-01-2018 23:56,3,-2.28206,2.7229,2.723032,11.7637,9.685961
01-02-2018 00:03,4.20023,4.63039,0.160155,3.27E-09,0.667338,1.19E-08
01-02-2018 00:13,4.22329,3.25978,0.761063,3.27E-09,3.19243,1.19E-08
01-02-2018 00:23,4.36478,3.25992,1.30344,3.27E-09,5.51972,1.19E-08
01-02-2018 00:33,4.40016,2.36743,1.78199,3.27E-09,7.62331,1.19E-08
01-02-2018 00:43,4.40013,1.7399,2.11993,3.27E-09,9.11028,1.19E-08
01-02-2018 00:53,4.40008,1.30125,2.37178,3.27E-09,10.2184,1.19E-08
01-02-2018 01:03,4.40007,0.962936,2.55934,3.27E-09,11.0437,1.19E-08
01-02-2018 01:13,4.40014,0.701217,2.69689,3.27E-09,11.6489,1.19E-08
01-02-2018 01:20,4.2884,0,2.72173,3.27E-09,11.7582,1.19E-08
01-02-2018 01:30,3.83487,-2.28194,2.72173,0.3803214,11.7582,1.492767
01-02-2018 01:40,3.69344,-2.28203,2.72173,0.7606646,11.7582,2.923412
01-02-2018 01:50,3.59127,-2.28198,2.72173,1.140991,11.7582,4.307847
01-02-2018 02:00,3.50951,-2.28211,2.72173,1.521345,11.7582,5.657743
01-02-2018 02:10,3.43643,-2.28204,2.72173,1.901682,11.7582,6.978769
01-02-2018 02:20,3.335,-2.28206,2.72173,2.282026,11.7582,8.268177
01-02-2018 02:30,3.09266,-2.28201,2.72173,2.662351,11.7582,9.500043
01-02-2018 02:37,3.63255,0,0,0,0,0
01-02-2018 02:46,4.20018,3.26,0.656958,0,2.7539,0
01-02-2018 02:56,4.33328,3.2598,1.19981,0,5.06812,0
01-02-2018 03:06,4.40013,2.54819,1.70582,0,7.28679,0
01-02-2018 03:16,4.4001,1.8432,2.06653,0,8.87397,0
01-02-2018 03:26,4.40009,1.37911,2.33316,0,10.0472,0
01-02-2018 03:36,4.40002,1.01631,2.53166,0,10.9206,0
01-02-2018 03:46,4.40002,0.741503,2.67729,0,11.5614,0
01-02-2018 03:55,4.28847,0,2.72305,0,11.7627,0
01-02-2018 04:05,3.83478,-2.28207,2.72305,0.3803235,11.7627,1.492973
01-02-2018 04:15,3.69361,-2.28199,2.72305,0.7606459,11.7627,2.923511
01-02-2018 04:25,3.59092,-2.28206,2.72305,1.141002,11.7627,4.307999
01-02-2018 04:35,3.50867,-2.28209,2.72305,1.521325,11.7627,5.65751
01-02-2018 04:45,3.43518,-2.28198,2.72305,1.901555,11.7627,6.977736
01-02-2018 04:55,3.33385,-2.28209,2.72305,2.282006,11.7627,8.26716
01-02-2018 05:05,3.09084,-2.28213,2.72305,2.662329,11.7627,9.498525
01-02-2018 05:12,3.63283,0,0,0,0,0
01-02-2018 05:22,4.20015,3.26,0.654241,0,2.7426,0
01-02-2018 05:32,4.3329,3.26023,1.19712,0,5.05672,0
01-02-2018 05:42,4.40009,2.55095,1.70337,0,7.27637,0
01-02-2018 05:52,4.40012,1.84888,2.06443,0,8.86507,0
01-02-2018 06:02,4.40012,1.38033,2.33151,0,10.0402,0
01-02-2018 06:12,4.40012,1.02134,2.5304,0,10.9154,0
01-02-2018 06:22,4.40003,0.743443,2.67631,0,11.5574,0
01-02-2018 06:30,4.28848,0,2.72174,0,11.7573,0
01-02-2018 06:40,3.83613,-2.28213,2.72174,0.3803313,11.7573,1.493268
01-02-2018 06:50,3.69382,-2.28212,2.72174,0.7606723,11.7573,2.924166
01-02-2018 07:00,3.59146,-2.28204,2.72174,1.140996,11.7573,4.308721
01-02-2018 07:10,3.50894,-2.28204,2.72174,1.521338,11.7573,5.658479
01-02-2018 07:20,3.4352,-2.28204,2.72174,1.901675,11.7573,6.979142
01-02-2018 07:30,3.33349,-2.28202,2.72174,2.282013,11.7573,8.268167
01-02-2018 07:40,3.09049,-2.28203,2.72174,2.662347,11.7573,9.499346
01-02-2018 07:47,3.63253,0,0,0,0,0
01-02-2018 07:57,4.20014,3.25999,0.651052,0,2.72922,0
01-02-2018 08:07,4.33295,3.25985,1.19401,0,5.04382,0
01-02-2018 08:17,4.4001,2.55029,1.70034,0,7.26378,0
01-02-2018 08:27,4.40011,1.84652,2.06124,0,8.85181,0
01-02-2018 08:37,4.40001,1.37999,2.32837,0,10.0272,0
01-02-2018 08:47,4.40011,1.02253,2.5273,0,10.9025,0
01-02-2018 08:57,4.4001,0.746281,2.67366,0,11.5465,0
01-02-2018 09:05,4.29167,0,2.72113,0,11.7553,0
01-02-2018 09:14,3.86698,-2.28202,2.72113,0.3042463,11.7553,1.200248
01-02-2018 09:24,3.71963,-2.28207,2.72113,0.6845925,11.7553,2.642307
01-02-2018 09:34,3.61076,-2.28203,2.72113,1.064892,11.7553,4.035132
01-02-2018 09:44,3.52489,-2.28193,2.72113,1.445259,11.7553,5.391634
01-02-2018 09:54,3.45148,-2.28217,2.72113,1.825563,11.7553,6.718115
01-02-2018 10:04,3.36039,-2.28218,2.72113,2.205926,11.7553,8.014961
01-02-2018 10:14,3.17013,-2.28207,2.72113,2.586291,11.7553,9.263041
01-02-2018 10:22,3.63221,0,2.72113,2.72085,11.7553,9.679626
01-02-2018 10:30,4.20013,3.47953,0.56,0,2.3467,0
01-02-2018 10:40,4.30374,3.25992,1.08939,0,4.5916,0
01-02-2018 10:50,4.40016,2.74969,1.61532,0,6.88913,0
01-02-2018 11:00,4.40013,1.95414,2.00012,0,8.58229,0
01-02-2018 11:10,4.4001,1.45874,2.28251,0,9.82482,0
01-02-2018 11:20,4.40004,1.08297,2.49296,0,10.7508,0
01-02-2018 11:30,4.40005,0.792077,2.64817,0,11.4338,0
01-02-2018 11:40,4.29126,0,2.71955,0,11.7479,0
01-02-2018 11:49,3.86599,-2.28209,2.71955,0.3042641,11.7479,1.199913
01-02-2018 11:59,3.71879,-2.28215,2.71955,0.6846059,11.7479,2.641511
01-02-2018 12:09,3.60899,-2.28208,2.71955,1.064931,11.7479,4.033859
01-02-2018 12:19,3.52386,-2.28213,2.71955,1.445278,11.7479,5.389847
01-02-2018 12:29,3.45071,-2.28213,2.71955,1.825594,11.7479,6.71599
01-02-2018 12:39,3.35929,-2.28219,2.71955,2.205965,11.7479,8.012527
01-02-2018 12:49,3.16885,-2.28202,2.71955,2.586314,11.7479,9.260121
01-02-2018 12:57,3.63199,0,2.71955,2.718972,11.7479,9.670713
01-02-2018 13:05,4.20018,3.48758,0.56034,0,2.34814,0
01-02-2018 13:15,4.303,3.25988,1.09172,0,4.6013,0
01-02-2018 13:25,4.40011,2.74945,1.61777,0,6.89924,0
01-02-2018 13:35,4.40014,1.95637,2.00262,0,8.59264,0
01-02-2018 13:45,4.4,1.45896,2.285,0,9.83511,0
01-02-2018 13:55,4.4001,1.08138,2.49535,0,10.7607,0
01-02-2018 14:05,4.40001,0.788723,2.65022,0,11.4421,0
01-02-2018 14:15,4.29142,0,2.71965,0,11.7476,0
01-02-2018 14:24,3.86612,-2.28208,2.71965,0.3042695,11.7476,1.200034
01-02-2018 14:34,3.71868,-2.28211,2.71965,0.6845972,11.7476,2.641671
01-02-2018 14:44,3.60938,-2.28211,2.71965,1.06495,11.7476,4.034204
01-02-2018 14:54,3.54112,-2.2821,2.71965,1.445232,11.7476,5.392625
01-02-2018 15:04,3.44985,-2.28211,2.71965,1.825636,11.7476,6.72038
01-02-2018 15:14,3.35912,-2.28212,2.71965,2.205971,11.7476,8.016597
01-02-2018 15:24,3.16797,-2.28202,2.71965,2.586315,11.7476,9.264002
01-02-2018 15:32,3.63194,0,2.71965,2.718238,11.7476,9.672337
01-02-2018 15:40,4.2002,3.47646,0.559187,0,2.34338,0
01-02-2018 15:50,4.30284,3.259902,1.08684,0,4.58077,0
01-02-2018 16:00,4.40016,2.75743,1.61334,0,6.88049,0
01-02-2018 16:10,4.40013,1.9583,1.99921,0,8.57836,0
01-02-2018 16:20,4.40003,1.46272,2.28211,0,9.82317,0
01-02-2018 16:30,4.4001,1.08591,2.49329,0,10.7524,0
01-02-2018 16:40,4.40007,0.789977,2.64863,0,11.4359,0
01-02-2018 16:50,4.29169,0,2.72002,0,11.75,0
01-02-2018 16:59,3.86711,-2.2821,2.72002,0.3042727,11.75,1.200296
01-02-2018 17:09,3.71973,-2.28197,2.72002,0.6846037,11.75,2.642302
01-02-2018 17:19,3.61038,-2.28209,2.72002,1.064938,11.75,4.035159
01-02-2018 17:29,3.52397,-2.28202,2.72002,1.445281,11.75,5.391311
01-02-2018 17:39,3.4504,-2.28205,2.72002,1.825624,11.75,6.71755
01-02-2018 17:49,3.35903,-2.28209,2.72002,2.205954,11.75,8.013892
01-02-2018 17:59,3.16857,-2.28212,2.72002,2.586305,11.75,9.261471
01-02-2018 18:08,3.6318,0,2.72002,2.719324,11.75,9.673174
01-02-2018 18:16,4.20011,3.47237,0.559232,1.05E-10,2.34355,3.83E-10
01-02-2018 18:25,4.30322,3.26013,1.08556,1.05E-10,4.57549,3.83E-10
01-02-2018 18:35,4.40013,2.75749,1.612,1.05E-10,6.87506,3.83E-10
01-02-2018 18:45,4.4001,1.95865,1.99762,1.05E-10,8.57184,3.83E-10
01-02-2018 18:55,4.40006,1.46202,2.28055,1.05E-10,9.81676,3.83E-10
01-02-2018 19:05,4.40011,1.08562,2.49159,1.05E-10,10.7454,3.83E-10
01-02-2018 19:15,4.40011,0.791245,2.64703,1.05E-10,11.4293,3.83E-10
01-02-2018 19:23,4.30295,0,2.71913,1.05E-10,11.7466,3.83E-10
01-02-2018 19:32,3.90014,-2.28207,2.71913,0.2281972,11.7466,0.9048284
01-02-2018 19:42,3.7465,-2.2821,2.71913,0.6085441,11.7466,2.358214
01-02-2018 19:52,3.62985,-2.28204,2.71913,0.9888799,11.7466,3.759546
01-02-2018 20:02,3.54035,-2.28207,2.71913,1.36922,11.7466,5.122504
01-02-2018 20:12,3.46564,-2.28214,2.71913,1.749551,11.7466,6.454559
01-02-2018 20:22,3.38202,-2.2821,2.71913,2.129897,11.7466,7.757717
01-02-2018 20:32,3.22647,-2.2821,2.71913,2.510239,11.7466,9.018654
01-02-2018 20:42,3.6203,0,2.71913,2.720377,11.7466,9.677097
01-02-2018 20:49,4.20024,3.77897,0.439138,0,1.83908,0
01-02-2018 20:58,4.27488,3.25992,0.979293,0,4.11945,0
01-02-2018 21:08,4.40019,2.99516,1.51852,0,6.46307,0
01-02-2018 21:18,4.40009,2.0772,1.93251,0,8.28471,0
01-02-2018 21:28,4.40008,1.55106,2.23227,0,9.60368,0
01-02-2018 21:38,4.40001,1.15206,2.45611,0,10.5886,0
01-02-2018 21:48,4.4,0.841298,2.6213,0,11.3155,0
01-02-2018 21:58,4.30288,0,2.7202,0,11.7506,0
01-02-2018 22:07,3.89989,-2.28217,2.7202,0.2281882,11.7506,0.9046485
01-02-2018 22:17,3.7463,-2.28207,2.7202,0.6085402,11.7506,2.357979
01-02-2018 22:27,3.62894,-2.28202,2.7202,0.9888322,11.7506,3.758907
01-02-2018 22:37,3.53994,-2.28211,2.7202,1.369171,11.7506,5.121715
01-02-2018 22:47,3.46547,-2.28203,2.7202,1.749532,11.7506,6.453653
01-02-2018 22:57,3.38166,-2.282,2.7202,2.129899,11.7506,7.756852
01-02-2018 23:07,3.22586,-2.28208,2.7202,2.510204,11.7506,9.017403
01-02-2018 23:17,3.62042,0,2.7202,2.719353,11.7506,9.672717
01-02-2018 23:24,4.20021,3.78392,0.439872,2.88E-10,1.84207,1.05E-09
01-02-2018 23:34,4.27463,3.25993,0.979991,2.88E-10,4.12227,1.05E-09
01-02-2018 23:44,4.4002,2.99824,1.51936,2.88E-10,6.46643,1.05E-09
01-02-2018 23:54,4.40011,2.07799,1.93304,2.88E-10,8.28667,1.05E-09
02-02-2018 00:04,4.40008,1.54861,2.23273,2.88E-10,9.60533,1.05E-09
02-02-2018 00:14,4.40008,1.15234,2.45664,2.88E-10,10.5905,1.05E-09
02-02-2018 00:24,4.4001,0.84183,2.62169,2.88E-10,11.3168,1.05E-09
02-02-2018 00:33,4.30302,0,2.72003,2.88E-10,11.7495,1.05E-09
02-02-2018 00:42,3.90004,-2.28215,2.72003,0.228192,11.7495,0.9047646
02-02-2018 00:52,3.74602,-2.28214,2.72003,0.6085204,11.7495,2.358068
02-02-2018 01:02,3.62875,-2.28215,2.72003,0.9888846,11.7495,3.759216
02-02-2018 01:12,3.53951,-2.28216,2.72003,1.369179,11.7495,5.121676
02-02-2018 01:22,3.46507,-2.28209,2.72003,1.749562,11.7495,6.453635
02-02-2018 01:32,3.38099,-2.28211,2.72003,2.129906,11.7495,7.756674
02-02-2018 01:42,3.22488,-2.28209,2.72003,2.510247,11.7495,9.016994
02-02-2018 01:52,3.62086,0,2.72003,2.718305,11.7495,9.668757
02-02-2018 01:59,4.2002,3.77841,0.439232,0,1.83943,0
02-02-2018 02:09,4.27505,3.259902,0.981624,0,4.12929,0
02-02-2018 02:19,4.40017,2.99215,1.52076,0,6.47276,0
02-02-2018 02:29,4.40009,2.07661,1.93418,0,8.29184,0
02-02-2018 02:39,4.40006,1.54527,2.23354,0,9.60906,0
02-02-2018 02:49,4.40012,1.15161,2.45694,0,10.5921,0
02-02-2018 02:59,4.40007,0.839883,2.62167,0,11.3169,0
02-02-2018 03:09,4.30311,0,2.71901,0,11.7452,0
02-02-2018 03:18,3.90098,-2.2821,2.71901,0.2282015,11.7452,0.9048961
02-02-2018 03:28,3.74662,-2.28199,2.71901,0.6085367,11.7452,2.35843
02-02-2018 03:38,3.62927,-2.2821,2.71901,0.9888678,11.7452,3.759682
02-02-2018 03:48,3.54014,-2.28209,2.71901,1.369216,11.7452,5.122494
02-02-2018 03:58,3.46492,-2.28209,2.71901,1.749555,11.7452,6.454318
02-02-2018 04:08,3.38113,-2.28205,2.71901,2.129872,11.7452,7.757225
02-02-2018 04:18,3.22438,-2.28205,2.71901,2.510243,11.7452,9.017755
02-02-2018 04:27,3.6212,0,2.71901,2.717375,11.7452,9.666493
02-02-2018 04:34,4.20022,3.77582,0.438371,0,1.83594,0
02-02-2018 04:44,4.27546,3.26014,0.97776,0,4.1132,0
02-02-2018 04:54,4.40016,2.98522,1.51669,0,6.45591,0
02-02-2018 05:04,4.40017,2.07386,1.92931,0,8.27153,0
02-02-2018 05:14,4.40013,1.54678,2.22839,0,9.5875,0
02-02-2018 05:24,4.40005,1.15034,2.45194,0,10.5711,0
02-02-2018 05:34,4.40012,0.845279,2.61706,0,11.2977,0
02-02-2018 05:44,4.4001,0.611092,2.7373,0,11.8268,0
02-02-2018 05:54,4.40002,0.441266,2.82422,0,12.2092,0
02-02-2018 06:04,4.40006,0.322773,2.88732,0,12.4868,0
02-02-2018 06:14,4.40003,0.2405,2.93379,0,12.6913,0
02-02-2018 06:24,4.39994,0.181985,2.96878,0,12.8453,0
02-02-2018 06:34,4.40002,0.141898,2.99568,0,12.9636,0
02-02-2018 06:44,4.4,0.112542,3.01679,0,13.0565,0
02-02-2018 06:54,4.40006,0.0916977,3.03366,0,13.1307,0
02-02-2018 06:59,4.39997,0.0814886,3.04078,0,13.1621,0